onset	duration	run	iti	alt	cong	reward	accuracy	task	choiceRT	targetRT
0	1.5	1	4.5	Switch	Con	0	1	Physical	0.313	0.399
9	1.5	1	3	Switch	Inc	0	1	Number	0.346	0.403
16.5	1.5	1	3	Switch	Inc	0	1	Physical	0.325	0.38
24	1.5	1	3	Repeat	Con	10	1	Physical	0.33	0.403
31.5	1.5	1	4.5	Repeat	Con	10	1	Physical	0.304	0.361
40.5	1.5	1	3	Switch	Inc	0	0	Number	0.387	0.465
48	1.5	1	3	Switch	Inc	10	1	Physical	0.289	0.348
55.5	1.5	1	4.5	Switch	Con	10	1	Number	0.297	0.387
64.5	1.5	1	3	Repeat	Inc	10	1	Number	0.293	0.348
72	1.5	1	3	Switch	Inc	0	0	Physical	0.28	0.332
79.5	1.5	1	6	Switch	Con	0	1	Number	0.302	0.381
90	1.5	1	3	Repeat	Con	0	1	Number	0.314	0.36
97.5	1.5	1	3	Repeat	Inc	0	1	Number	0.306	0.44
105	1.5	1	3	Repeat	Con	10	1	Number	0.271	0.387
112.5	1.5	1	3	Repeat	Inc	0	0	Number	0.309	0.314
120	1.5	1	3	Switch	Inc	0	0	Physical	0.285	0.473
127.5	1.5	1	3	Repeat	Inc	10	1	Physical	0.303	0.329
135	1.5	1	3	Switch	Con	10	1	Number	0.355	0.429
142.5	1.5	1	3	Switch	Inc	0	0	Physical	0.349	0.441
150	1.5	1	3	Repeat	Inc	0	1	Physical	0.296	0.408
157.5	1.5	1	3	Repeat	Con	10	1	Physical	0.304	0.352
165	1.5	1	3	Repeat	Con	0	1	Physical	0.272	0.334
172.5	1.5	1	3	Switch	Inc	0	0	Number	0.262	0.362
180	1.5	1	3	Switch	Con	10	1	Physical	0.269	0.323
187.5	1.5	1	3	Switch	Con	0	1	Number	0.231	0.373
195	1.5	1	3	Repeat	Con	10	1	Number	0.284	0.332
202.5	1.5	1	3	Switch	Inc	0	1	Physical	0.339	0.339
210	1.5	1	3	Repeat	Con	0	0	Physical	0.271	0.356
217.5	1.5	1	3	Repeat	Inc	10	1	Physical	0.291	0.479
225	1.5	1	3	Switch	Con	10	1	Number	0.425	0.375
232.5	1.5	1	3	Switch	Con	10	1	Physical	0.303	0.326
240	1.5	1	3	Switch	Inc	10	1	Number	0.014	0.469
247.5	1.5	1	3	Switch	Inc	0	0	Physical	0.318	0.445
255	1.5	1	3	Repeat	Inc	0	1	Physical	0.26	0.368
262.5	1.5	1	6	Repeat	Con	0	1	Physical	0.278	0.371
273	1.5	1	3	Repeat	Con	0	1	Physical	0.307	0.403
280.5	1.5	1	3	Repeat	Inc	0	1	Physical	0.333	0.438
288	1.5	1	3	Switch	Con	0	1	Number	0.263	0.333
295.5	1.5	1	3	Repeat	Inc	0	1	Number	0.316	0.512
303	1.5	1	3	Switch	Con	0	1	Physical	0.259	0.349
310.5	1.5	1	3	Switch	Con	0	1	Number	0.3	0.44
318	1.5	1	3	Switch	Con	0	1	Physical	0.289	0.336
325.5	1.5	1	3	Repeat	Inc	0	0	Physical	0.278	0.45
333	1.5	1	4.5	Repeat	Con	0	1	Physical	0.358	0.338
342	1.5	1	3	Switch	Inc	0	1	Number	0.274	0.393
349.5	1.5	1	3	Switch	Con	0	1	Physical	0.331	0.31
357	1.5	1	3	Switch	Inc	0	0	Number	0.294	0.421
364.5	1.5	1	3	Switch	Inc	0	0	Physical	0.261	0.397
372	1.5	1	3	Repeat	Inc	0	1	Physical	0.275	0.387
379.5	1.5	1	3	Switch	Inc	0	0	Number	0.269	0.486
387	1.5	1	3	Repeat	Inc	10	1	Number	0.062	0.4
394.5	1.5	1	3	Switch	Con	0	1	Physical	0.407	0.525
402	1.5	1	3	Repeat	Con	0	1	Physical	0.327	0.329
409.5	1.5	1	3	Repeat	Inc	0	0	Physical	0.319	0.35
417	1.5	1	3	Repeat	Inc	0	1	Physical	0.317	0.484
424.5	1.5	1	3	Repeat	Con	0	1	Physical	0.301	0.32
432	1.5	1	7.5	Switch	Con	0	1	Number	0.27	0.425
444	1.5	1	3	Repeat	Inc	0	0	Number	0.339	0.347
451.5	1.5	1	3	Repeat	Inc	0	1	Number	0.345	0.412
459	1.5	1	3	Switch	Inc	0	1	Physical	0.294	0.364
466.5	1.5	1	3	Switch	Con	0	1	Number	0.31	0.442
474	1.5	1	3	Repeat	Con	0	1	Number	0.165	0.365
481.5	1.5	1	3	Repeat	Con	0	1	Number	0.276	0.355
489	1.5	1	3	Switch	Con	0	1	Physical	0.275	0.384
0	1.5	2	3	Repeat	Inc	10	1	Physical	0.554	0.481
7.5	1.5	2	3	Repeat	Con	0	1	Physical	0.373	0.359
15	1.5	2	3	Switch	Inc	10	1	Number	0.239	0.46
22.5	1.5	2	3	Repeat	Con	0	1	Number	0.258	0.437
30	1.5	2	3	Switch	Inc	0	0	Physical	0.318	0.365
37.5	1.5	2	3	Switch	Con	10	1	Number	0.307	0.391
45	1.5	2	3	Repeat	Con	0	1	Number	0.286	0.403
52.5	1.5	2	3	Repeat	Inc	10	1	Number	0.248	0.418
60	1.5	2	3	Switch	Inc	10	1	Physical	0.313	0.374
67.5	1.5	2	4.5	Switch	Inc	0	0	Number	0.327	0.369
76.5	1.5	2	3	Switch	Con	10	1	Physical	0.283	0.366
84	1.5	2	4.5	Repeat	Inc	0	1	Physical	0.321	0.354
93	1.5	2	3	Repeat	Con	0	1	Physical	0.336	0.376
100.5	1.5	2	3	Repeat	Inc	0	0	Physical	0.3	0.503
108	1.5	2	3	Switch	Inc	0	0	Number	0.281	0.431
115.5	1.5	2	3	Repeat	Inc	0	1	Number	0.323	0.358
123	1.5	2	3	Switch	Con	0	1	Physical	0.297	0.343
130.5	1.5	2	3	Switch	Inc	10	1	Number	0.359	0.413
138	1.5	2	3	Switch	Con	10	1	Physical	0.366	0.361
145.5	1.5	2	3	Repeat	Inc	0	0	Physical	0.28	0.409
153	1.5	2	3	Repeat	Inc	0	1	Physical	0.322	0.438
160.5	1.5	2	3	Repeat	Inc	0	1	Physical	0.294	0.463
168	1.5	2	3	Switch	Con	10	1	Number	0.281	0.381
175.5	1.5	2	3	Repeat	Con	10	1	Number	0.349	0.355
183	1.5	2	3	Switch	Con	0	1	Physical	0.271	0.341
190.5	1.5	2	3	Switch	Con	10	1	Number	0.331	0.352
198	1.5	2	3	Switch	Con	10	1	Physical	0.409	0.473
205.5	1.5	2	3	Switch	Inc	0	0	Number	0.287	0.377
213	1.5	2	3	Repeat	Con	10	1	Number	0.279	0.37
220.5	1.5	2	3	Repeat	Con	0	1	Number	0.324	0.378
228	1.5	2	3	Repeat	Inc	0	1	Number	0.301	0.381
235.5	1.5	2	3	Switch	Inc	0	0	Physical	0.297	0.491
243	1.5	2	3	Switch	Con	0	1	Number	0.252	0.39
250.5	1.5	2	4.5	Switch	Inc	0	1	Physical	0.269	0.319
259.5	1.5	2	3	Repeat	Con	0	1	Physical	0.323	0.394
267	1.5	2	3	Repeat	Inc	10	1	Physical	0.302	0.336
274.5	1.5	2	6	Switch	Inc	0	1	Number	0.332	0.391
285	1.5	2	3	Repeat	Con	0	1	Number	0.321	0.384
292.5	1.5	2	3	Switch	Con	0	1	Physical	0.373	0.338
300	1.5	2	3	Switch	Inc	0	1	Number	0.253	0.409
307.5	1.5	2	4.5	Switch	Con	10	1	Physical	0.325	0.333
316.5	1.5	2	3	Repeat	Inc	0	1	Physical	0.341	0.348
324	1.5	2	3	Switch	Inc	0	1	Number	0.447	0.423
331.5	1.5	2	3	Repeat	Inc	0	1	Number	0.311	0.345
339	1.5	2	3	Repeat	Con	0	1	Number	0.316	0.427
346.5	1.5	2	3	Switch	Con	10	1	Physical	0.287	0.399
354	1.5	2	3	Switch	Inc	0	1	Number	0.295	0.418
361.5	1.5	2	3	Repeat	Inc	0	1	Number	0.299	0.434
369	1.5	2	6	Switch	Con	0	1	Physical	0.298	0.326
379.5	1.5	2	3	Repeat	Con	0	1	Physical	0.319	0.354
387	1.5	2	7.5	Repeat	Inc	0	1	Physical	0.349	0.426
399	1.5	2	3	Switch	Inc	0	1	Number	0.301	0.471
406.5	1.5	2	3	Repeat	Con	0	1	Number	0.338	0.425
414	1.5	2	3	Switch	Inc	0	1	Physical	0.321	0.325
421.5	1.5	2	3	Switch	Inc	0	1	Number	0.287	0.437
429	1.5	2	3	Repeat	Con	0	1	Number	0.379	0.405
436.5	1.5	2	3	Repeat	Inc	0	0	Number	0.315	0.335
444	1.5	2	3	Switch	Con	0	1	Physical	0.339	0.327
451.5	1.5	2	3	Repeat	Con	0	1	Physical	0.314	0.316
459	1.5	2	3	Switch	Con	0	1	Number	0.327	0.432
466.5	1.5	2	3	Switch	Con	0	1	Physical	0.321	0.352
474	1.5	2	3	Switch	Inc	0	1	Number	0.287	0.396
481.5	1.5	2	3	Repeat	Con	0	1	Number	0.262	0.391
489	1.5	2	3	Switch	Con	0	1	Physical	0.34	0.349
0	1.5	3	3	Repeat	Inc	10	1	Physical	0.278	0.401
7.5	1.5	3	3	Repeat	Con	10	1	Physical	0.329	0.339
15	1.5	3	3	Switch	Con	10	1	Number	0.279	0.413
22.5	1.5	3	3	Switch	Con	10	1	Physical	0.298	0.329
30	1.5	3	3	Switch	Con	0	1	Number	0.272	0.33
37.5	1.5	3	6	Repeat	Con	0	1	Number	0.365	0.4
48	1.5	3	3	Repeat	Inc	0	0	Number	0.261	0.409
55.5	1.5	3	3	Switch	Con	0	1	Physical	0.418	0.348
63	1.5	3	3	Repeat	Inc	0	1	Physical	0.349	0.342
70.5	1.5	3	3	Switch	Con	0	1	Number	0.281	0.402
78	1.5	3	6	Switch	Inc	0	0	Physical	0.298	0.411
88.5	1.5	3	3	Switch	Inc	10	1	Number	0.267	0.393
96	1.5	3	3	Switch	Inc	0	0	Physical	0.383	0.45
103.5	1.5	3	3	Repeat	Con	0	1	Physical	0.312	0.352
111	1.5	3	3	Repeat	Inc	0	1	Physical	0.295	0.51
118.5	1.5	3	4.5	Repeat	Con	10	1	Physical	0.332	0.324
127.5	1.5	3	3	Switch	Con	0	1	Number	0.317	0.452
135	1.5	3	3	Repeat	Con	10	1	Number	0.32	0.368
142.5	1.5	3	3	Switch	Inc	0	1	Physical	1.221	0.432
150	1.5	3	3	Repeat	Inc	10	1	Physical	0.36	0.346
157.5	1.5	3	3	Switch	Con	10	1	Number	0.003	0.433
165	1.5	3	3	Switch	Con	0	1	Physical	0.429	0.332
172.5	1.5	3	3	Switch	Inc	0	0	Number	0.268	0.333
180	1.5	3	3	Repeat	Inc	0	0	Number	0.22	0.37
187.5	1.5	3	3	Repeat	Inc	0	1	Number	0.357	0.362
195	1.5	3	4.5	Switch	Inc	0	1	Physical	0.282	0.374
204	1.5	3	4.5	Repeat	Con	10	1	Physical	0.37	0.371
213	1.5	3	3	Switch	Inc	0	1	Number	0.309	0.427
220.5	1.5	3	3	Switch	Inc	0	1	Physical	0.401	0.39
228	1.5	3	3	Repeat	Inc	0	1	Physical	0.275	0.352
235.5	1.5	3	3	Repeat	Inc	0	1	Physical	0.346	0.346
243	1.5	3	3	Repeat	Con	10	1	Physical	0.335	0.353
250.5	1.5	3	3	Switch	Inc	10	1	Number	0.283	0.428
258	1.5	3	3	Repeat	Inc	0	1	Number	0.397	0.425
265.5	1.5	3	3	Repeat	Inc	0	1	Number	0.271	0.416
273	1.5	3	3	Switch	Con	0	1	Physical	0.281	0.326
280.5	1.5	3	3	Switch	Inc	10	1	Number	0.303	0.456
288	1.5	3	3	Switch	Inc	0	0	Physical	0.37	0.536
295.5	1.5	3	3	Repeat	Con	10	1	Physical	0.36	0.335
303	1.5	3	3	Switch	Con	0	0	Number	0.321	0.406
310.5	1.5	3	3	Repeat	Con	0	1	Number	0.361	0.373
318	1.5	3	7.5	Repeat	Con	10	1	Number	0.197	0.358
330	1.5	3	3	Switch	Con	0	1	Physical	0.354	0.392
337.5	1.5	3	3	Switch	Con	10	1	Number	0.315	0.392
345	1.5	3	3	Switch	Inc	0	0	Physical	0.539	0.385
352.5	1.5	3	3	Repeat	Con	0	1	Physical	0.313	0.382
360	1.5	3	4.5	Repeat	Inc	0	1	Physical	0.118	0.345
369	1.5	3	3	Repeat	Con	0	1	Physical	0.286	0.327
376.5	1.5	3	3	Repeat	Inc	0	1	Physical	0.268	0.338
384	1.5	3	3	Switch	Inc	0	0	Number	0.244	0.363
391.5	1.5	3	3	Switch	Inc	0	0	Physical	0.274	0.366
399	1.5	3	3	Switch	Con	0	1	Number	0.283	0.382
406.5	1.5	3	3	Repeat	Inc	0	0	Number	0.275	0.374
414	1.5	3	3	Switch	Con	0	1	Physical	0.256	0.358
421.5	1.5	3	3	Repeat	Inc	0	1	Physical	0.352	0.368
429	1.5	3	3	Switch	Con	0	1	Number	0.314	0.411
436.5	1.5	3	3	Switch	Con	0	1	Physical	0.29	0.374
444	1.5	3	3	Repeat	Con	0	1	Physical	0.285	0.402
451.5	1.5	3	3	Repeat	Inc	0	1	Physical	0.383	0.479
459	1.5	3	3	Switch	Con	0	1	Number	0.306	0.386
466.5	1.5	3	3	Repeat	Inc	0	1	Number	0.33	0.405
474	1.5	3	3	Switch	Con	0	1	Physical	0.397	0.354
481.5	1.5	3	3	Switch	Con	0	1	Number	0.279	0.423
489	1.5	3	3	Repeat	Inc	0	1	Number	0.289	0.417
0	1.5	4	3	Switch	Con	10	1	Physical	0.842	0.394
7.5	1.5	4	3	Switch	Con	0	1	Number	0.279	0.494
15	1.5	4	3	Repeat	Con	10	1	Number	0.113	0.408
22.5	1.5	4	3	Switch	Con	10	1	Physical	0.373	0.319
30	1.5	4	4.5	Switch	Inc	0	1	Number	0.253	0.53
39	1.5	4	3	Switch	Inc	10	1	Physical	0.301	0.328
46.5	1.5	4	3	Repeat	Con	0	1	Physical	0.322	0.31
54	1.5	4	3	Repeat	Inc	10	1	Physical	0.304	0.328
61.5	1.5	4	3	Switch	Inc	10	1	Number	0.331	0.374
69	1.5	4	3	Repeat	Inc	0	1	Number	0.305	0.415
76.5	1.5	4	3	Switch	Con	0	1	Physical	0.316	0.36
84	1.5	4	3	Repeat	Inc	10	1	Physical	0.272	0.335
91.5	1.5	4	3	Switch	Con	0	1	Number	0.316	0.356
99	1.5	4	3	Switch	Inc	10	1	Physical	0.275	0.355
106.5	1.5	4	3	Switch	Con	0	1	Number	0.397	0.352
114	1.5	4	3	Repeat	Con	0	1	Number	0.324	0.355
121.5	1.5	4	3	Repeat	Inc	10	1	Number	0.31	0.367
129	1.5	4	3	Repeat	Con	10	1	Number	0.301	0.398
136.5	1.5	4	3	Switch	Inc	0	1	Physical	0.313	0.346
144	1.5	4	3	Repeat	Con	0	1	Physical	0.347	0.346
151.5	1.5	4	3	Switch	Inc	0	0	Number	0.313	0.373
159	1.5	4	3	Repeat	Inc	0	1	Number	0.281	0.436
166.5	1.5	4	3	Switch	Con	10	1	Physical	0.338	0.357
174	1.5	4	3	Switch	Con	0	0	Number	0.303	0.383
181.5	1.5	4	3	Switch	Con	0	1	Physical	0.272	0.357
189	1.5	4	3	Repeat	Con	10	1	Physical	0.295	0.368
196.5	1.5	4	3	Repeat	Inc	0	1	Physical	0.389	0.385
204	1.5	4	3	Switch	Con	0	0	Number	0.257	0.372
211.5	1.5	4	3	Null	Inc	0	0	NoChoice	0	0.448
219	1.5	4	3	Switch	Inc	0	1	Physical	0.424	0.408
226.5	1.5	4	3	Repeat	Con	0	1	Physical	0.337	0.415
234	1.5	4	3	Switch	Inc	0	0	Number	0.252	0.479
241.5	1.5	4	3	Switch	Con	0	1	Physical	0.389	0.361
249	1.5	4	3	Switch	Inc	10	1	Number	0.268	0.382
256.5	1.5	4	3	Repeat	Inc	0	1	Number	0.323	0.384
264	1.5	4	3	Repeat	Inc	0	1	Number	0.295	0.448
271.5	1.5	4	3	Repeat	Inc	0	0	Number	0.27	0.358
279	1.5	4	3	Repeat	Inc	0	1	Number	0.296	0.354
286.5	1.5	4	3	Switch	Inc	0	0	Physical	0.254	0.529
294	1.5	4	3	Repeat	Con	0	1	Physical	0.272	0.342
301.5	1.5	4	7.5	Switch	Inc	0	1	Number	0.29	0.416
313.5	1.5	4	3	Switch	Inc	0	0	Physical	0.311	0.476
321	1.5	4	3	Switch	Inc	0	1	Number	0.367	0.43
328.5	1.5	4	3	Switch	Con	0	1	Physical	0.29	0.337
336	1.5	4	3	Repeat	Con	0	1	Physical	0.283	0.376
343.5	1.5	4	4.5	Repeat	Inc	0	1	Physical	0.321	0.362
352.5	1.5	4	3	Switch	Con	0	1	Number	0.316	0.379
360	1.5	4	3	Switch	Con	0	1	Physical	0.285	0.325
367.5	1.5	4	3	Switch	Inc	0	1	Number	0.275	0.427
375	1.5	4	3	Repeat	Con	0	0	Number	0.281	0.431
382.5	1.5	4	3	Repeat	Inc	0	0	Number	0.267	0.36
390	1.5	4	3	Repeat	Con	10	1	Number	0.399	0.494
397.5	1.5	4	3	Switch	Con	0	1	Physical	0.363	0.353
405	1.5	4	3	Switch	Inc	0	1	Number	0.305	0.467
412.5	1.5	4	3	Switch	Con	0	1	Physical	0.292	0.415
420	1.5	4	3	Switch	Con	10	1	Number	0.297	0.396
427.5	1.5	4	3	Repeat	Con	0	1	Number	0.33	0.443
435	1.5	4	3	Switch	Inc	0	1	Physical	0.322	0.364
442.5	1.5	4	4.5	Repeat	Inc	0	1	Physical	0.364	0.353
451.5	1.5	4	3	Repeat	Con	0	1	Physical	0.284	0.342
459	1.5	4	6	Repeat	Con	0	1	Physical	0.274	0.364
469.5	1.5	4	3	Switch	Inc	10	1	Number	0.282	0.424
477	1.5	4	6	Switch	Inc	0	1	Physical	0.334	0.372
487.5	1.5	4	4.5	Switch	Con	0	1	Number	0.306	0.368
0	1.5	5	3	Repeat	Inc	10	1	Number	0.296	0.379
7.5	1.5	5	3	Switch	Con	0	1	Physical	0.32	0.362
15	1.5	5	3	Repeat	Con	10	1	Physical	0.286	0.371
22.5	1.5	5	3	Repeat	Con	10	1	Physical	0.363	0.348
30	1.5	5	3	Switch	Con	0	1	Number	0.287	0.383
37.5	1.5	5	3	Repeat	Con	10	1	Number	0.326	0.392
45	1.5	5	3	Switch	Inc	0	0	Physical	0.372	0.455
52.5	1.5	5	4.5	Switch	Con	10	1	Number	0.295	0.342
61.5	1.5	5	3	Repeat	Con	10	1	Number	0.273	0.372
69	1.5	5	6	Switch	Con	0	1	Physical	0.29	0.341
79.5	1.5	5	3	Switch	Inc	0	0	Number	0.302	0.363
87	1.5	5	4.5	Switch	Inc	0	1	Physical	0.296	0.478
96	1.5	5	3	Repeat	Con	10	1	Physical	0.293	0.368
103.5	1.5	5	3	Repeat	Inc	0	1	Physical	0.344	0.321
111	1.5	5	3	Switch	Con	10	1	Number	0.258	0.33
118.5	1.5	5	3	Repeat	Inc	0	1	Number	0.335	0.414
126	1.5	5	3	Repeat	Con	0	1	Number	0.273	0.356
133.5	1.5	5	3	Repeat	Con	0	1	Number	0.294	0.421
141	1.5	5	3	Switch	Inc	0	1	Physical	0.351	0.342
148.5	1.5	5	3	Switch	Inc	10	1	Number	0.268	0.448
156	1.5	5	3	Switch	Inc	0	1	Physical	0.379	0.375
163.5	1.5	5	3	Repeat	Con	10	1	Physical	0.352	0.369
171	1.5	5	3	Switch	Con	0	1	Number	0.237	0.452
178.5	1.5	5	3	Repeat	Inc	0	0	Number	0.309	0.41
186	1.5	5	3	Switch	Con	0	1	Physical	0.506	0.37
193.5	1.5	5	3	Repeat	Con	0	1	Physical	0.367	0.394
201	1.5	5	3	Repeat	Inc	0	1	Physical	0.265	0.735
208.5	1.5	5	3	Repeat	Inc	0	1	Physical	0.435	0.388
216	1.5	5	3	Switch	Inc	10	1	Number	0.321	0.382
223.5	1.5	5	3	Switch	Inc	10	1	Physical	0.33	0.341
231	1.5	5	3	Switch	Con	0	1	Number	0.32	0.469
238.5	1.5	5	3	Repeat	Inc	0	1	Number	0.336	0.4
246	1.5	5	3	Repeat	Inc	10	1	Number	0.329	0.428
253.5	1.5	5	3	Switch	Inc	0	0	Physical	0.533	0.537
261	1.5	5	3	Repeat	Inc	0	1	Physical	0.303	0.513
268.5	1.5	5	3	Switch	Inc	0	1	Number	0.281	0.476
276	1.5	5	3	Switch	Con	10	1	Physical	0.389	0.358
283.5	1.5	5	3	Repeat	Con	10	1	Physical	0.296	0.353
291	1.5	5	3	Repeat	Con	10	1	Physical	0.452	0.335
298.5	1.5	5	3	Repeat	Con	0	1	Physical	0.294	0.352
306	1.5	5	3	Switch	Con	0	0	Number	0.311	0.384
313.5	1.5	5	6	Repeat	Inc	0	1	Number	0.265	0.443
324	1.5	5	3	Switch	Con	0	0	Physical	0.481	0.405
331.5	1.5	5	3	Repeat	Inc	0	1	Physical	0.268	0.353
339	1.5	5	3	Switch	Inc	0	0	Number	0.298	0.493
346.5	1.5	5	3	Switch	Inc	0	1	Physical	0.325	0.47
354	1.5	5	3	Switch	Con	0	0	Number	0.28	0.379
361.5	1.5	5	3	Repeat	Inc	0	1	Number	0.331	0.461
369	1.5	5	3	Repeat	Inc	0	1	Number	0.305	0.495
376.5	1.5	5	3	Repeat	Inc	0	1	Number	0.289	0.47
384	1.5	5	3	Switch	Con	0	1	Physical	0.299	0.367
391.5	1.5	5	3	Repeat	Con	0	1	Physical	0.291	0.329
399	1.5	5	3	Switch	Inc	0	0	Number	0.3	0.456
406.5	1.5	5	4.5	Switch	Inc	0	1	Physical	0.329	0.471
415.5	1.5	5	3	Switch	Con	0	1	Number	0.288	0.388
423	1.5	5	3	Repeat	Con	0	0	Number	0.319	0.397
430.5	1.5	5	3	Switch	Inc	0	1	Physical	0.48	0.416
438	1.5	5	3	Repeat	Inc	0	1	Physical	0.309	0.434
445.5	1.5	5	3	Repeat	Inc	0	1	Physical	0.317	0.447
453	1.5	5	3	Repeat	Con	0	1	Physical	0.28	0.346
460.5	1.5	5	3	Switch	Con	0	1	Number	0.247	0.363
468	1.5	5	4.5	Switch	Inc	0	0	Physical	0.278	0.381
477	1.5	5	7.5	Switch	Con	0	1	Number	0.282	0.36
489	1.5	5	3	Repeat	Con	0	1	Number	0.289	0.369