onset	duration	run	iti	alt	cong	reward	accuracy	task	choiceRT	targetRT
0	1.5	1	3	Switch	Inc	0	1	Number	0.556	0.555
7.5	1.5	1	3	Switch	Con	0	1	Physical	0.395	0.343
15	1.5	1	3	Repeat	Con	0	1	Physical	0.314	0.446
22.5	1.5	1	3	Repeat	Inc	0	0	Physical	0.347	0.577
30	1.5	1	4.5	Switch	Inc	0	1	Number	0.28	0.575
39	1.5	1	3	Repeat	Con	0	1	Number	0.369	0.399
46.5	1.5	1	3	Switch	Con	0	1	Physical	0.518	0.395
54	1.5	1	3	Repeat	Con	10	1	Physical	0.319	0.36
61.5	1.5	1	3	Repeat	Con	10	1	Physical	0.363	0.36
69	1.5	1	3	Switch	Inc	10	1	Number	0.299	0.411
76.5	1.5	1	3	Repeat	Con	10	1	Number	0.314	0.399
84	1.5	1	3	Switch	Con	0	1	Physical	0.311	0.418
91.5	1.5	1	3	Repeat	Inc	0	0	Physical	0.273	0.364
99	1.5	1	6	Repeat	Con	0	1	Physical	0.319	0.367
109.5	1.5	1	3	Switch	Inc	0	1	Number	0.498	0.514
117	1.5	1	3	Switch	Inc	0	1	Physical	0.333	1.034
124.5	1.5	1	3	Repeat	Con	10	1	Physical	0.465	0.458
132	1.5	1	3	Repeat	Inc	10	1	Physical	0.402	0.474
139.5	1.5	1	3	Switch	Con	10	1	Number	0.336	0.408
147	1.5	1	3	Switch	Con	10	1	Physical	0.337	0.392
154.5	1.5	1	3	Switch	Con	0	1	Number	0.326	0.393
162	1.5	1	3	Repeat	Inc	0	1	Number	0.348	0.942
169.5	1.5	1	3	Repeat	Inc	0	1	Number	0.328	0.571
177	1.5	1	3	Switch	Inc	0	0	Physical	0.404	0.709
184.5	1.5	1	3	Repeat	Inc	0	1	Physical	0.447	0.532
192	1.5	1	4.5	Switch	Con	0	0	Number	0.282	0.467
201	1.5	1	7.5	Repeat	Inc	10	1	Number	0.349	0.49
213	1.5	1	3	Switch	Inc	0	1	Physical	0.379	0.421
220.5	1.5	1	3	Repeat	Inc	0	1	Physical	0.504	0.54
228	1.5	1	3	Repeat	Con	0	1	Physical	0.346	0.385
235.5	1.5	1	3	Switch	Inc	0	1	Number	0.396	0.52
243	1.5	1	3	Repeat	Inc	0	1	Number	0.591	0.567
250.5	1.5	1	3	Repeat	Con	10	1	Number	0.326	0.385
258	1.5	1	3	Switch	Inc	0	1	Physical	0.662	0.596
265.5	1.5	1	3	Repeat	Inc	10	1	Physical	0.368	0.396
273	1.5	1	4.5	Switch	Con	0	1	Number	0.34	0.666
282	1.5	1	3	Switch	Inc	0	1	Physical	0.352	0.55
289.5	1.5	1	3	Switch	Con	0	1	Number	0.431	0.379
297	1.5	1	3	Switch	Con	10	1	Physical	0.358	0.379
304.5	1.5	1	3	Switch	Inc	0	1	Number	0.427	0.491
312	1.5	1	3	Repeat	Inc	10	1	Number	0.321	0.436
319.5	1.5	1	3	Switch	Con	0	1	Physical	0.497	0.49
327	1.5	1	3	Repeat	Con	0	1	Physical	0.374	0.401
334.5	1.5	1	3	Repeat	Inc	10	1	Physical	0.4	0.378
342	1.5	1	3	Switch	Inc	10	1	Number	0.312	0.403
349.5	1.5	1	3	Repeat	Con	0	1	Number	0.33	0.328
357	1.5	1	3	Repeat	Con	0	1	Number	0.327	0.386
364.5	1.5	1	3	Repeat	Inc	0	0	Number	0.582	0.355
372	1.5	1	3	Repeat	Inc	10	1	Number	0.293	0.419
379.5	1.5	1	3	Switch	Con	0	1	Physical	0.376	0.326
387	1.5	1	3	Repeat	Inc	0	0	Physical	0.409	0.64
394.5	1.5	1	3	Repeat	Con	0	1	Physical	0.383	0.468
402	1.5	1	3	Repeat	Inc	0	1	Physical	0.358	0.369
409.5	1.5	1	6	Switch	Con	0	1	Number	0.388	0.355
420	1.5	1	3	Repeat	Con	0	1	Number	0.631	0.503
427.5	1.5	1	4.5	Switch	Inc	0	1	Physical	0.546	0.504
436.5	1.5	1	3	Repeat	Con	0	1	Physical	0.491	0.418
444	1.5	1	3	Repeat	Inc	0	1	Physical	0.426	0.361
451.5	1.5	1	3	Repeat	Con	0	1	Physical	0.392	0.4
459	1.5	1	3	Repeat	Inc	0	1	Physical	0.381	0.414
466.5	1.5	1	3	Repeat	Inc	0	1	Physical	0.364	0.337
474	1.5	1	3	Switch	Con	0	1	Number	0.316	0.414
481.5	1.5	1	3	Repeat	Con	0	1	Number	0.837	0.405
489	1.5	1	3	Repeat	Con	0	1	Number	0.379	0.403
0	1.5	2	3	Repeat	Con	10	1	Number	0.365	0.388
7.5	1.5	2	4.5	Repeat	Inc	10	1	Number	0.312	0.482
16.5	1.5	2	4.5	Switch	Con	10	1	Physical	0.36	0.341
25.5	1.5	2	3	Switch	Con	0	0	Number	0.353	0.377
33	1.5	2	3	Repeat	Inc	0	1	Number	0.339	0.703
40.5	1.5	2	3	Switch	Con	0	1	Physical	0.333	0.386
48	1.5	2	3	Switch	Inc	0	1	Number	0.345	0.493
55.5	1.5	2	3	Repeat	Con	0	1	Number	0.781	0.403
63	1.5	2	3	Switch	Inc	0	1	Physical	0.32	0.471
70.5	1.5	2	3	Repeat	Inc	10	1	Physical	0.504	0.367
78	1.5	2	3	Repeat	Inc	0	0	Physical	0.341	0.551
85.5	1.5	2	3	Repeat	Inc	0	1	Physical	0.562	0.482
93	1.5	2	3	Repeat	Inc	0	1	Physical	0.382	0.519
100.5	1.5	2	3	Repeat	Con	10	1	Physical	0.335	0.351
108	1.5	2	3	Repeat	Con	0	1	Physical	0.356	0.397
115.5	1.5	2	3	Switch	Con	0	1	Number	0.336	0.402
123	1.5	2	3	Switch	Con	0	1	Physical	0.346	0.42
130.5	1.5	2	3	Switch	Con	10	1	Number	0.384	0.362
138	1.5	2	3	Switch	Con	0	1	Physical	0.352	0.377
145.5	1.5	2	3	Repeat	Inc	10	1	Physical	0.47	0.471
153	1.5	2	3	Repeat	Con	0	1	Physical	0.403	0.385
160.5	1.5	2	3	Switch	Inc	0	0	Number	0.291	0.375
168	1.5	2	3	Repeat	Con	0	1	Number	0.412	0.438
175.5	1.5	2	3	Repeat	Inc	0	1	Number	0.318	0.602
183	1.5	2	3	Repeat	Inc	10	1	Number	0.43	0.467
190.5	1.5	2	3	Switch	Con	10	1	Physical	0.449	0.342
198	1.5	2	3	Repeat	Inc	0	1	Physical	0.376	0.37
205.5	1.5	2	3	Switch	Con	10	1	Number	0.408	0.476
213	1.5	2	3	Switch	Inc	0	1	Physical	0.372	0.61
220.5	1.5	2	3	Switch	Inc	0	1	Number	0.331	0.432
228	1.5	2	3	Repeat	Inc	0	1	Number	0.352	0.504
235.5	1.5	2	3	Repeat	Con	10	1	Number	0.344	0.419
243	1.5	2	3	Switch	Inc	0	1	Physical	0.443	0.426
250.5	1.5	2	3	Repeat	Inc	0	1	Physical	0.293	0.392
258	1.5	2	3	Repeat	Inc	0	0	Physical	0.513	0.397
265.5	1.5	2	7.5	Switch	Con	0	1	Number	0.49	0.394
277.5	1.5	2	3	Repeat	Inc	0	1	Number	0.388	0.38
285	1.5	2	3	Repeat	Con	0	1	Number	0.346	0.413
292.5	1.5	2	3	Repeat	Con	0	1	Number	0.341	0.394
300	1.5	2	3	Switch	Con	0	1	Physical	0.341	0.403
307.5	1.5	2	3	Switch	Inc	0	1	Number	0.3	0.575
315	1.5	2	3	Switch	Con	0	1	Physical	0.352	0.344
322.5	1.5	2	3	Repeat	Con	10	1	Physical	0.488	0.419
330	1.5	2	3	Switch	Con	0	1	Number	0.278	0.348
337.5	1.5	2	3	Repeat	Inc	0	0	Number	0.326	0.387
345	1.5	2	3	Repeat	Inc	0	1	Number	0.32	0.57
352.5	1.5	2	3	Repeat	Inc	10	1	Number	0.386	0.416
360	1.5	2	3	Switch	Inc	0	0	Physical	0.395	0.544
367.5	1.5	2	3	Repeat	Inc	0	1	Physical	0.414	0.6
375	1.5	2	4.5	Switch	Con	0	1	Number	0.374	0.414
384	1.5	2	3	Repeat	Con	0	1	Number	0.475	0.494
391.5	1.5	2	3	Switch	Con	0	1	Physical	0.442	0.415
399	1.5	2	3	Repeat	Inc	0	1	Physical	0.304	0.338
406.5	1.5	2	3	Repeat	Con	10	1	Physical	0.33	0.41
414	1.5	2	4.5	Switch	Con	0	1	Number	0.302	0.396
423	1.5	2	3	Repeat	Inc	0	1	Number	0.361	0.632
430.5	1.5	2	6	Repeat	Con	0	1	Number	0.459	0.509
441	1.5	2	6	Repeat	Inc	0	1	Number	0.337	0.602
451.5	1.5	2	3	Repeat	Con	10	1	Number	0.357	0.435
459	1.5	2	3	Switch	Inc	0	1	Physical	0.367	0.539
466.5	1.5	2	3	Repeat	Inc	10	1	Physical	0.376	0.475
474	1.5	2	3	Switch	Con	0	1	Number	0.33	0.442
481.5	1.5	2	3	Repeat	Inc	0	1	Number	0.463	0.44
489	1.5	2	3	Switch	Con	0	1	Physical	0.375	0.346
0	1.5	3	3	Switch	Con	0	1	Number	1.045	0.565
7.5	1.5	3	3	Repeat	Con	0	1	Number	0.349	0.397
15	1.5	3	3	Repeat	Inc	10	1	Number	0.287	0.363
22.5	1.5	3	3	Switch	Con	0	1	Physical	0.308	0.309
30	1.5	3	3	Switch	Con	0	1	Number	0.323	0.386
37.5	1.5	3	3	Switch	Con	0	1	Physical	0.49	0.623
45	1.5	3	3	Repeat	Con	0	1	Physical	0.327	0.403
52.5	1.5	3	3	Repeat	Con	10	1	Physical	0.311	0.332
60	1.5	3	3	Switch	Con	0	1	Number	0.415	0.437
67.5	1.5	3	3	Repeat	Con	0	1	Number	0.422	0.387
75	1.5	3	4.5	Switch	Inc	0	0	Physical	0.312	0.36
84	1.5	3	3	Repeat	Inc	0	1	Physical	0.459	0.336
91.5	1.5	3	6	Switch	Con	10	1	Number	0.338	0.425
102	1.5	3	3	Switch	Inc	0	0	Physical	0.335	0.496
109.5	1.5	3	3	Repeat	Con	0	1	Physical	0.386	0.371
117	1.5	3	3	Repeat	Inc	0	0	Physical	0.403	0.554
124.5	1.5	3	3	Repeat	Inc	0	1	Physical	0.377	0.424
132	1.5	3	4.5	Repeat	Con	10	1	Physical	0.311	0.354
141	1.5	3	3	Switch	Con	10	1	Number	0.4	0.411
148.5	1.5	3	3	Repeat	Con	0	1	Number	0.357	0.349
156	1.5	3	3	Switch	Inc	0	1	Physical	0.593	0.358
163.5	1.5	3	3	Switch	Con	0	1	Number	0.503	0.537
171	1.5	3	3	Repeat	Con	0	1	Number	0.331	0.477
178.5	1.5	3	3	Repeat	Inc	10	1	Number	0.39	0.379
186	1.5	3	4.5	Repeat	Inc	0	1	Number	0.409	0.522
195	1.5	3	3	Switch	Inc	0	0	Physical	0.334	0.396
202.5	1.5	3	6	Repeat	Con	0	1	Physical	0.353	0.42
213	1.5	3	4.5	Repeat	Con	0	1	Physical	0.326	0.384
222	1.5	3	3	Repeat	Con	0	1	Physical	0.353	0.449
229.5	1.5	3	3	Switch	Inc	0	1	Number	0.345	0.383
237	1.5	3	3	Repeat	Inc	0	0	Number	0.315	0.387
244.5	1.5	3	3	Repeat	Inc	0	0	Number	0.409	0.375
252	1.5	3	3	Repeat	Con	10	1	Number	0.336	0.391
259.5	1.5	3	3	Switch	Inc	0	1	Physical	0.583	0.385
267	1.5	3	3	Repeat	Con	10	1	Physical	0.446	0.381
274.5	1.5	3	3	Repeat	Con	10	1	Physical	0.426	0.428
282	1.5	3	3	Repeat	Con	10	1	Physical	0.313	0.39
289.5	1.5	3	3	Switch	Inc	0	1	Number	0.34	0.384
297	1.5	3	3	Repeat	Con	10	1	Number	0.298	0.363
304.5	1.5	3	3	Switch	Con	10	1	Physical	0.329	0.345
312	1.5	3	3	Switch	Inc	0	1	Number	0.546	0.404
319.5	1.5	3	3	Repeat	Inc	0	1	Number	0.512	0.467
327	1.5	3	3	Switch	Inc	0	1	Physical	0.489	1.175
334.5	1.5	3	3	Repeat	Inc	0	1	Physical	0.303	0.36
342	1.5	3	3	Repeat	Inc	10	1	Physical	0.298	0.389
349.5	1.5	3	3	Switch	Inc	0	1	Number	1.253	0.62
357	1.5	3	3	Repeat	Con	0	1	Number	0.954	0.454
364.5	1.5	3	3	Switch	Inc	0	0	Physical	0.418	0.596
372	1.5	3	3	Repeat	Inc	0	1	Physical	0.508	0.363
379.5	1.5	3	3	Switch	Con	0	1	Number	0.28	0.602
387	1.5	3	7.5	Repeat	Con	10	1	Number	0.459	0.389
399	1.5	3	3	Switch	Inc	0	1	Physical	0.381	0.537
406.5	1.5	3	3	Repeat	Con	10	1	Physical	0.905	0.372
414	1.5	3	3	Repeat	Inc	0	1	Physical	0.775	0.645
421.5	1.5	3	3	Repeat	Inc	0	1	Physical	0.362	0.426
429	1.5	3	3	Repeat	Con	0	1	Physical	0.373	0.352
436.5	1.5	3	3	Switch	Inc	10	1	Number	0.349	0.485
444	1.5	3	3	Repeat	Con	0	1	Number	0.278	0.37
451.5	1.5	3	3	Switch	Inc	0	0	Physical	0.41	0.41
459	1.5	3	3	Repeat	Inc	0	1	Physical	0.45	0.406
466.5	1.5	3	3	Repeat	Con	0	1	Physical	0.372	0.367
474	1.5	3	3	Repeat	Inc	0	1	Physical	0.616	0.525
481.5	1.5	3	3	Switch	Inc	0	1	Number	0.392	0.48
489	1.5	3	3	Repeat	Inc	0	1	Number	0.653	0.432
0	1.5	4	3	Repeat	Inc	0	0	Number	0.654	0.366
7.5	1.5	4	3	Repeat	Inc	10	1	Number	0.324	0.431
15	1.5	4	3	Switch	Inc	10	1	Physical	0.363	0.38
22.5	1.5	4	3	Repeat	Inc	0	1	Physical	0.389	0.577
30	1.5	4	3	Switch	Con	0	1	Number	0.318	0.433
37.5	1.5	4	3	Repeat	Con	10	1	Number	0.336	0.426
45	1.5	4	3	Repeat	Inc	0	1	Number	0.34	0.6
52.5	1.5	4	3	Repeat	Inc	0	1	Number	0.403	0.457
60	1.5	4	3	Switch	Inc	10	1	Physical	0.369	0.351
67.5	1.5	4	4.5	Repeat	Inc	0	1	Physical	0.401	0.567
76.5	1.5	4	3	Switch	Con	10	1	Number	0.383	0.368
84	1.5	4	6	Switch	Con	0	1	Physical	0.367	0.709
94.5	1.5	4	3	Switch	Inc	0	1	Number	0.344	0.414
102	1.5	4	3	Switch	Con	10	1	Physical	0.397	0.42
109.5	1.5	4	3	Repeat	Con	0	1	Physical	0.765	0.498
117	1.5	4	3	Null	Inc	0	0	NoChoice	0	0.742
124.5	1.5	4	4.5	Switch	Con	0	1	Number	0.453	0.414
133.5	1.5	4	3	Switch	Inc	0	0	Physical	0.371	0.517
141	1.5	4	3	Repeat	Con	0	1	Physical	0.343	0.419
148.5	1.5	4	3	Repeat	Con	0	1	Physical	0.388	0.404
156	1.5	4	3	Repeat	Con	0	1	Physical	0.329	0.32
163.5	1.5	4	3	Repeat	Inc	10	1	Physical	0.382	0.421
171	1.5	4	3	Switch	Con	10	1	Number	0.316	0.376
178.5	1.5	4	3	Repeat	Inc	0	0	Number	0.342	0.388
186	1.5	4	3	Repeat	Con	0	1	Number	0.359	0.461
193.5	1.5	4	3	Repeat	Con	10	1	Number	0.612	0.46
201	1.5	4	3	Switch	Inc	0	1	Physical	0.395	0.408
208.5	1.5	4	3	Repeat	Inc	0	1	Physical	0.344	0.498
216	1.5	4	3	Repeat	Con	10	1	Physical	0.324	0.362
223.5	1.5	4	3	Switch	Inc	10	1	Number	0.352	0.458
231	1.5	4	3	Switch	Con	0	1	Physical	0.358	0.384
238.5	1.5	4	3	Repeat	Con	10	1	Physical	0.302	0.407
246	1.5	4	3	Switch	Con	10	1	Number	0.372	0.498
253.5	1.5	4	3	Repeat	Con	0	1	Number	0.336	0.431
261	1.5	4	3	Repeat	Inc	0	1	Number	0.374	0.506
268.5	1.5	4	4.5	Switch	Con	0	1	Physical	0.369	0.631
277.5	1.5	4	3	Repeat	Con	10	1	Physical	0.384	0.382
285	1.5	4	3	Repeat	Inc	0	0	Physical	0.315	0.464
292.5	1.5	4	3	Switch	Con	0	1	Number	0.357	0.541
300	1.5	4	4.5	Switch	Con	0	1	Physical	0.328	0.435
309	1.5	4	3	Repeat	Inc	10	1	Physical	0.42	0.382
316.5	1.5	4	3	Switch	Inc	0	1	Number	0.425	0.526
324	1.5	4	3	Switch	Con	0	1	Physical	0.392	0.448
331.5	1.5	4	3	Switch	Con	10	1	Number	0.361	0.397
339	1.5	4	3	Repeat	Con	0	1	Number	0.448	0.347
346.5	1.5	4	6	Repeat	Inc	0	1	Number	0.399	0.798
357	1.5	4	3	Switch	Con	0	1	Physical	0.401	0.409
364.5	1.5	4	3	Repeat	Con	0	1	Physical	0.455	0.434
372	1.5	4	3	Repeat	Inc	0	0	Physical	0.781	0.752
379.5	1.5	4	3	Switch	Inc	0	1	Number	0.368	0.654
387	1.5	4	3	Repeat	Inc	0	1	Number	0.39	0.553
394.5	1.5	4	3	Repeat	Inc	0	1	Number	0.473	0.463
402	1.5	4	3	Repeat	Inc	0	0	Number	0.325	0.396
409.5	1.5	4	3	Switch	Inc	0	0	Physical	0.362	0.839
417	1.5	4	3	Repeat	Inc	0	1	Physical	0.486	0.637
424.5	1.5	4	7.5	Repeat	Inc	0	1	Physical	0.353	0.36
436.5	1.5	4	3	Repeat	Con	0	1	Physical	0.499	0.464
444	1.5	4	3	Repeat	Con	0	1	Physical	0.343	0.394
451.5	1.5	4	3	Repeat	Inc	0	1	Physical	0.606	0.57
459	1.5	4	3	Switch	Con	0	1	Number	0.393	0.465
466.5	1.5	4	3	Repeat	Con	0	1	Number	0.33	0.432
474	1.5	4	3	Repeat	Inc	0	1	Number	0.501	0.488
481.5	1.5	4	3	Repeat	Inc	0	1	Number	0.347	0.632
489	1.5	4	3	Switch	Con	0	1	Physical	0.395	0.411
0	1.5	5	3	Repeat	Inc	0	1	Physical	0.415	0.474
7.5	1.5	5	3	Repeat	Con	10	1	Physical	0.338	0.358
15	1.5	5	3	Repeat	Inc	0	1	Physical	0.359	0.477
22.5	1.5	5	4.5	Repeat	Inc	0	1	Physical	0.317	0.509
31.5	1.5	5	6	Switch	Con	0	1	Number	0.325	0.39
42	1.5	5	3	Repeat	Inc	0	1	Number	0.497	0.821
49.5	1.5	5	3	Repeat	Inc	10	1	Number	0.58	0.427
57	1.5	5	3	Repeat	Con	0	1	Number	0.374	0.382
64.5	1.5	5	3	Repeat	Inc	10	1	Number	0.409	0.475
72	1.5	5	3	Switch	Con	10	1	Physical	0.36	0.353
79.5	1.5	5	4.5	Repeat	Con	0	1	Physical	0.348	0.368
88.5	1.5	5	3	Switch	Con	10	1	Number	0.377	0.476
96	1.5	5	3	Switch	Inc	0	0	Physical	0.44	0.692
103.5	1.5	5	3	Switch	Inc	10	1	Number	0.33	0.476
111	1.5	5	3	Repeat	Con	10	1	Number	0.377	0.418
118.5	1.5	5	3	Switch	Con	0	1	Physical	0.389	0.428
126	1.5	5	3	Repeat	Con	0	1	Physical	0.352	0.335
133.5	1.5	5	3	Repeat	Inc	0	1	Physical	0.361	0.507
141	1.5	5	3	Repeat	Inc	10	1	Physical	0.386	0.348
148.5	1.5	5	3	Switch	Inc	10	1	Number	0.405	0.442
156	1.5	5	3	Repeat	Inc	10	1	Number	0.347	0.389
163.5	1.5	5	3	Repeat	Inc	0	1	Number	0.478	0.461
171	1.5	5	3	Switch	Con	0	1	Physical	0.332	0.348
178.5	1.5	5	3	Repeat	Inc	10	1	Physical	0.303	0.356
186	1.5	5	3	Switch	Con	0	1	Number	0.361	0.515
193.5	1.5	5	3	Repeat	Inc	10	1	Number	0.363	0.394
201	1.5	5	3	Repeat	Inc	0	1	Number	0.459	0.431
208.5	1.5	5	3	Repeat	Inc	0	1	Number	0.486	0.445
216	1.5	5	3	Switch	Inc	0	1	Physical	0.287	0.359
223.5	1.5	5	3	Switch	Inc	0	1	Number	0.37	0.498
231	1.5	5	3	Switch	Con	0	1	Physical	0.419	0.399
238.5	1.5	5	3	Switch	Con	0	1	Number	0.337	0.431
246	1.5	5	3	Repeat	Con	0	1	Number	0.333	0.402
253.5	1.5	5	3	Switch	Con	0	1	Physical	0.348	0.38
261	1.5	5	3	Repeat	Con	10	1	Physical	0.313	0.487
268.5	1.5	5	3	Repeat	Inc	0	1	Physical	0.495	0.392
276	1.5	5	3	Repeat	Con	0	1	Physical	0.413	0.413
283.5	1.5	5	3	Switch	Con	0	1	Number	0.319	0.469
291	1.5	5	3	Repeat	Con	0	1	Number	0.384	0.431
298.5	1.5	5	3	Repeat	Inc	0	1	Number	0.362	0.57
306	1.5	5	6	Switch	Inc	0	1	Physical	0.427	0.626
316.5	1.5	5	3	Repeat	Inc	0	1	Physical	0.319	0.618
324	1.5	5	3	Null	Inc	0	0	NoChoice	0	0.697
331.5	1.5	5	3	Switch	Con	0	1	Number	0.34	0.512
339	1.5	5	3	Repeat	Inc	0	0	Number	0.344	0.376
346.5	1.5	5	3	Repeat	Con	0	1	Number	0.358	0.429
354	1.5	5	3	Repeat	Inc	0	1	Number	0.3	0.414
361.5	1.5	5	3	Repeat	Con	0	1	Number	0.378	0.474
369	1.5	5	3	Repeat	Con	0	1	Number	0.401	0.382
376.5	1.5	5	3	Switch	Con	0	1	Physical	0.376	0.483
384	1.5	5	3	Repeat	Con	10	1	Physical	0.416	0.361
391.5	1.5	5	3	Repeat	Con	0	1	Physical	0.357	0.352
399	1.5	5	3	Repeat	Con	10	1	Physical	0.307	0.419
406.5	1.5	5	7.5	Switch	Inc	0	1	Number	0.34	0.478
418.5	1.5	5	3	Repeat	Inc	0	1	Number	0.328	0.524
426	1.5	5	3	Repeat	Inc	0	0	Number	0.397	0.391
433.5	1.5	5	3	Repeat	Con	0	1	Number	0.334	0.398
441	1.5	5	3	Repeat	Inc	0	1	Number	0.279	0.449
448.5	1.5	5	3	Switch	Inc	0	1	Physical	0.412	0.422
456	1.5	5	3	Repeat	Con	0	1	Physical	0.416	0.4
463.5	1.5	5	4.5	Repeat	Inc	0	1	Physical	0.338	0.509
472.5	1.5	5	3	Null	Con	0	0	NoChoice	0	0
480	1.5	5	4.5	Switch	Con	0	1	Physical	0.409	0.421
489	1.5	5	3	Repeat	Con	0	1	Physical	0.359	0.377